Folder: databases_demo/raw_data

Note: README.md
# databases_demo
Demonstration of various database structures

File: test_cv.txt
June 22, 2021   15:50:38
Cyclic Voltammetry
File: c:\users\susan odom\desktop\hussein\2021-06-22\csv files\13- scan rate both waves - 25 mv-s
Data Source:  Experiment
Instrument Model:  CHI650Ref. Electrode:
Header:
Note:

Init E (V) = 0
High E (V) = 1.6
Low E (V) = 0
Init P/N = P
Scan Rate (V/s) = 0.025
Segment = 2
Sample Interval (V) = 0.001
Quiet Time (sec) = 2
Sensitivity (A/V) = 1e-4
Comp R (ohm) = 1317.2

Segment 1:
Segment 2:
Ep = 1.360V
Eh = 1.433V
ip = 4.020e-6A
Ah = 1.186e-5C

Potential/V, Current/A

0.000, -9.843e-8
0.011, -6.247e-8
0.022, -4.223e-8
0.033, -3.044e-8
0.044, -2.042e-8
0.055, -1.079e-8
0.066, -4.107e-9
0.077, 2.574e-9
0.088, 6.603e-9
0.099, 1.073e-8
0.110, 1.525e-8
0.121, 1.879e-8
0.132, 2.321e-8
0.143, 2.625e-8
0.154, 2.969e-8
0.165, 3.185e-8
0.176, 3.529e-8
0.187, 3.775e-8
0.198, 4.060e-8
0.209, 4.414e-8
0.220, 4.630e-8
0.231, 4.993e-8
0.242, 5.200e-8
0.253, 5.475e-8
0.264, 5.701e-8
0.275, 6.113e-8
0.286, 6.261e-8
0.297, 6.595e-8
0.308, 6.929e-8
0.319, 7.312e-8
0.330, 7.813e-8
0.341, 8.108e-8
0.352, 8.550e-8
0.363, 8.972e-8
0.374, 9.542e-8
0.385, 1.012e-7
0.396, 1.084e-7
0.407, 1.184e-7
0.418, 1.299e-7
0.429, 1.455e-7
0.440, 1.649e-7
0.451, 1.918e-7
0.462, 2.279e-7
0.473, 2.734e-7
0.484, 3.321e-7
0.495, 4.032e-7
0.506, 4.807e-7
0.517, 5.567e-7
0.528, 6.329e-7
0.539, 7.085e-7
0.550, 7.929e-7
0.561, 9.001e-7
0.572, 1.061e-6
0.583, 1.312e-6
0.594, 1.696e-6
0.605, 2.285e-6
0.616, 3.162e-6
0.627, 4.464e-6
0.638, 6.339e-6
0.649, 8.975e-6
0.660, 1.257e-5
0.671, 1.732e-5
0.682, 2.327e-5
0.693, 3.040e-5
0.704, 3.852e-5
0.715, 4.712e-5
0.726, 5.580e-5
0.737, 6.389e-5
0.748, 7.070e-5
0.759, 7.569e-5
0.770, 7.864e-5
0.781, 7.947e-5
0.792, 7.842e-5
0.803, 7.587e-5
0.814, 7.229e-5
0.825, 6.827e-5
0.836, 6.435e-5
0.847, 6.092e-5
0.858, 5.819e-5
0.869, 5.621e-5
0.880, 5.509e-5
0.891, 5.490e-5
0.902, 5.579e-5
0.913, 5.789e-5
0.924, 6.133e-5
0.935, 6.609e-5
0.946, 7.205e-5
0.957, 7.886e-5
0.968, 8.605e-5
0.979, 9.306e-5
0.990, 9.924e-5
1.001, 1.041e-4
1.012, 1.074e-4
1.023, 1.088e-4
1.034, 1.086e-4
1.045, 1.069e-4
1.056, 1.040e-4
1.067, 1.003e-4
1.078, 9.622e-5
1.089, 9.218e-5
1.100, 8.849e-5
1.111, 8.526e-5
1.122, 8.249e-5
1.133, 8.012e-5
1.144, 7.809e-5
1.155, 7.634e-5
1.166, 7.484e-5
1.177, 7.353e-5
1.188, 7.240e-5
1.199, 7.142e-5
1.210, 7.057e-5
1.221, 6.983e-5
1.232, 6.918e-5
1.243, 6.864e-5
1.254, 6.819e-5
1.265, 6.782e-5
1.276, 6.754e-5
1.287, 6.735e-5
1.298, 6.724e-5
1.309, 6.720e-5
1.320, 6.724e-5
1.331, 6.733e-5
1.342, 6.748e-5
1.353, 6.767e-5
1.364, 6.789e-5
1.375, 6.814e-5
1.386, 6.839e-5
1.397, 6.866e-5
1.408, 6.893e-5
1.419, 6.919e-5
1.430, 6.945e-5
1.441, 6.970e-5
1.452, 6.993e-5
1.463, 7.014e-5
1.474, 7.032e-5
1.485, 7.048e-5
1.496, 7.060e-5
1.507, 7.070e-5
1.518, 7.077e-5
1.529, 7.080e-5
1.540, 7.081e-5
1.551, 7.080e-5
1.562, 7.075e-5
1.573, 7.068e-5
1.584, 7.060e-5
1.595, 7.051e-5
1.594, 6.998e-5
1.583, 6.964e-5
1.572, 6.938e-5
1.561, 6.916e-5
1.550, 6.899e-5
1.539, 6.886e-5
1.528, 6.876e-5
1.517, 6.871e-5
1.506, 6.871e-5
1.495, 6.877e-5
1.484, 6.892e-5
1.473, 6.916e-5
1.462, 6.949e-5
1.451, 6.992e-5
1.440, 7.040e-5
1.429, 7.091e-5
1.418, 7.141e-5
1.407, 7.186e-5
1.396, 7.223e-5
1.385, 7.250e-5
1.374, 7.268e-5
1.363, 7.275e-5
1.352, 7.271e-5
1.341, 7.259e-5
1.330, 7.239e-5
1.319, 7.214e-5
1.308, 7.184e-5
1.297, 7.152e-5
1.286, 7.118e-5
1.275, 7.082e-5
1.264, 7.046e-5
1.253, 7.010e-5
1.242, 6.974e-5
1.231, 6.939e-5
1.220, 6.906e-5
1.209, 6.876e-5
1.198, 6.850e-5
1.187, 6.829e-5
1.176, 6.814e-5
1.165, 6.807e-5
1.154, 6.807e-5
1.143, 6.812e-5
1.132, 6.818e-5
1.121, 6.822e-5
1.110, 6.815e-5
1.099, 6.792e-5
1.088, 6.742e-5
1.077, 6.647e-5
1.066, 6.492e-5
1.055, 6.257e-5
1.044, 5.921e-5
1.033, 5.472e-5
1.022, 4.900e-5
1.011, 4.211e-5
1.000, 3.423e-5
0.989, 2.566e-5
0.978, 1.693e-5
0.967, 8.622e-6
0.956, 1.411e-6
0.945, -4.122e-6
0.934, -7.701e-6
0.923, -9.083e-6
0.912, -8.435e-6
0.901, -6.067e-6
0.890, -2.606e-6
0.879, 1.293e-6
0.868, 5.057e-6
0.857, 8.363e-6
0.846, 1.099e-5
0.835, 1.287e-5
0.824, 1.393e-5
0.813, 1.406e-5
0.802, 1.313e-5
0.791, 1.095e-5
0.780, 7.391e-6
0.769, 2.391e-6
0.758, -4.055e-6
0.747, -1.173e-5
0.736, -2.033e-5
0.725, -2.885e-5
0.714, -3.663e-5
0.703, -4.357e-5
0.692, -4.849e-5
0.681, -5.118e-5
0.670, -5.180e-5
0.659, -5.051e-5
0.648, -4.764e-5
0.637, -4.373e-5
0.626, -3.932e-5
0.615, -3.498e-5
0.604, -3.104e-5
0.593, -2.767e-5
0.582, -2.481e-5
0.571, -2.239e-5
0.560, -2.034e-5
0.549, -1.861e-5
0.538, -1.712e-5
0.527, -1.582e-5
0.516, -1.469e-5
0.505, -1.368e-5
0.494, -1.277e-5
0.483, -1.193e-5
0.472, -1.116e-5
0.461, -1.045e-5
0.450, -9.788e-6
0.439, -9.183e-6
0.428, -8.628e-6
0.417, -8.123e-6
0.406, -7.659e-6
0.395, -7.232e-6
0.384, -6.847e-6
0.373, -6.481e-6
0.362, -6.149e-6
0.351, -5.840e-6
0.340, -5.554e-6
0.329, -5.286e-6
0.318, -5.032e-6
0.307, -4.798e-6
0.296, -4.577e-6
0.285, -4.374e-6
0.274, -4.178e-6
0.263, -3.995e-6
0.252, -3.824e-6
0.241, -3.661e-6
0.230, -3.504e-6
0.219, -3.360e-6
0.208, -3.218e-6
0.197, -3.087e-6
0.186, -2.963e-6
0.175, -2.842e-6
0.164, -2.726e-6
0.153, -2.616e-6
0.142, -2.508e-6
0.131, -2.407e-6
0.120, -2.305e-6
0.109, -2.211e-6
0.098, -2.121e-6
0.087, -2.032e-6
0.076, -1.947e-6
0.065, -1.866e-6
0.054, -1.787e-6
0.043, -1.712e-6
0.032, -1.637e-6
0.021, -1.568e-6
0.010, -1.500e-6
0.001, -1.448e-6